"date","rt","trial_type","trial_index","time_elapsed","internal_node_id","gender","age","key_press","button_pressed","success","response","quantile_tTest","quantile_response","quantile_mean","quantile_sd","mean_tTest","mean_response","mean_mean","mean_sd","mode_tTest","mode_response","mode_mean","mode_sd","ID","appName","vendor","platform","userAgent","platform_name","platform_version","platform_layout","architecture","family","os_version","os","description","product","create_time","update_time","time_quantile","time_mean","time_mode"
"2021-07-29-20:50:17",NULL,"html-keyboard-response","40","65719","0.0-1.39-0.39",NULL,NULL,NULL,NULL,NULL,NULL,"-1.94485940843","1","-1.9482523429484","0.099226522569586","-2.0207442216934","1","-2.024792996377","0.04855708310331","-2.17","0","-2.1015525689241","0.18115617903461","gr6qxy6p","Netscape","Google Inc.","Linux armv8l","Mozilla/5.0 (Linux; Android 9; SO-02K Build/47.2.B.5.38; wv) AppleWebKit/537.36 (KHTML, like Gecko) Version/4.0 Chrome/92.0.4515.115 Mobile Safari/537.36 Line/11.12.3/IAB","Android Browser","4.0","Blink","32","Android","9","Android 9","Android Browser 4.0 (like Chrome 92.0.4515.115) on SO-02K (Android 9)","SO-02K","15.400000035763",NULL,"4.8199999988079","1.005000013113","1.4050000026822"
"2021-07-29-21:00:17",NULL,"html-keyboard-response","40","22917","0.0-1.39-0.39",NULL,NULL,NULL,NULL,NULL,NULL,"-1.8752112505965","1","-1.8824589505207","0.049736082074817","-2.1035774461632","1","-2.1094917108576","0.061098944447886","-2.1","1","-2.0144893205507","0.2898174391423","z87khqm6","Netscape","Google Inc.","Linux armv8l","Mozilla/5.0 (Linux; Android 9; SO-02K) AppleWebKit/537.36 (KHTML, like Gecko) Chrome/92.0.4515.115 Mobile Safari/537.36","Chrome Mobile","92.0.4515.115","Blink","32","Android","9","Android 9","Chrome Mobile 92.0.4515.115 on SO-02K (Android 9)","SO-02K","30.100000023842",NULL,"4.0450000077486","0.94999999254942","1.1649999961257"
"2021-07-30-10:23:40",NULL,"html-keyboard-response","40","237420","0.0-1.39-0.39",NULL,NULL,NULL,NULL,NULL,NULL,"-1.995856523695","1","-2.003236595205","0.049777846573589","-1.9642046518448","1","-1.9774174913935","0.1146332908224","-2.05","1","-2.0382116526034","0.053542654947317","p8x44xzx","Netscape","Google Inc.","Win32","Mozilla/5.0 (Windows NT 10.0; Win64; x64) AppleWebKit/537.36 (KHTML, like Gecko) Chrome/92.0.4515.107 Safari/537.36","Chrome","92.0.4515.107","Blink","64","Windows","10","Windows 10 64-bit","Chrome 92.0.4515.107 on Windows 10 64-bit",NULL,"16.79999999702",NULL,"0.68750000074506","0.18249999880791","0.23750000186265"
"2021-07-30-11:47:19",NULL,"html-keyboard-response","40","22910","0.0-1.39-0.39",NULL,NULL,NULL,NULL,NULL,NULL,"-2.0348951428705","1","-2.0434245678016","0.053255241885939","-1.9401393630503","1","-1.9443000620162","0.0489124792681","-1.95","1","-1.9372480024801","0.067549925456418","gh9dmh3y","Netscape","Apple Computer, Inc.","iPhone","Mozilla/5.0 (iPhone; CPU iPhone OS 14_0_1 like Mac OS X) AppleWebKit/605.1.15 (KHTML, like Gecko) Version/14.0 Mobile/15E148 Safari/604.1","Safari","14.0","WebKit","32","iOS","14.0.1","iOS 14.0.1","Safari 14.0 on Apple iPhone (iOS 14.0.1)","iPhone","10",NULL,"2.1250000000001","0.42500000000009","0.52500000000009"
"2021-07-30-11:47:27",NULL,"html-keyboard-response","40","26921","0.0-1.39-0.39",NULL,NULL,NULL,NULL,NULL,NULL,"-1.9942309534655","1","-1.9622042115969","0.32451905519322","-1.9784194156483","1","-1.9876141240372","0.092660253838756","-1.95","1","-1.880227101397","0.2837414055813","9f1dd00f","Netscape","Google Inc.","Win32","Mozilla/5.0 (Windows NT 10.0; Win64; x64) AppleWebKit/537.36 (KHTML, like Gecko) Chrome/92.0.4515.107 Safari/537.36","Chrome","92.0.4515.107","Blink","64","Windows","10","Windows 10 64-bit","Chrome 92.0.4515.107 on Windows 10 64-bit",NULL,"8.8000001907349",NULL,"0.75250001549721","0.16250001788139","0.22749995589256"
"2021-07-30-11:47:41",NULL,"html-keyboard-response","40","42272","0.0-1.39-0.39",NULL,NULL,NULL,NULL,NULL,NULL,"-1.9876695542993","0","-1.973309700708","0.052705851635171","-2.0056887489204","1","-2.0107553401256","0.055388133940023","-1.96","1","-1.9255382658239","0.15181419103683","t5mchaws","Netscape","Google Inc.","MacIntel","Mozilla/5.0 (Macintosh; Intel Mac OS X 10_15_7) AppleWebKit/537.36 (KHTML, like Gecko) Chrome/92.0.4515.107 Safari/537.36","Chrome","92.0.4515.107","Blink","64","OS X","10.15.7","OS X 10.15.7 64-bit","Chrome 92.0.4515.107 on OS X 10.15.7 64-bit",NULL,"3.3000000119209",NULL,"0.27500000372529","0.065000000596046","0.077500001341105"
"2021-07-30-11:48:10",NULL,"html-keyboard-response","40","32959","0.0-1.39-0.39",NULL,NULL,NULL,NULL,NULL,NULL,"-1.9809314982462","1","-1.9863837992766","0.051881984790033","-1.9444881582903","1","-1.948748977358","0.049938217173965","-2.21","1","-2.1381440975381","0.26444421988561","2l0353w1","Netscape","Google Inc.","Linux armv8l","Mozilla/5.0 (Linux; Android 11; Redmi Note 9S) AppleWebKit/537.36 (KHTML, like Gecko) Chrome/92.0.4515.115 Mobile Safari/537.36","Chrome Mobile","92.0.4515.115","Blink","32","Android","11","Android 11","Chrome Mobile 92.0.4515.115 on Redmi Note 9S (Android 11)","Redmi Note 9S","13.800000071526",NULL,"3.9325000017881","0.85999999642372","1.3674999952316"
"2021-07-30-11:49:25",NULL,"html-keyboard-response","40","21731","0.0-1.39-0.39",NULL,NULL,NULL,NULL,NULL,NULL,"-1.9751492465402","0","-1.9617584368116","0.049498553860202","-1.9829436537223","1","-1.9886204372012","0.058313348423173","-2.04","0","-2.0094574118365","0.063951393337874","553grnbn","Netscape","Apple Computer, Inc.","MacIntel","Mozilla/5.0 (Macintosh; Intel Mac OS X 10_15_6) AppleWebKit/605.1.15 (KHTML, like Gecko) Version/13.1.2 Safari/605.1.15","Safari","13.1.2","WebKit","32","OS X","10.15.6","OS X 10.15.6","Safari 13.1.2 on OS X 10.15.6",NULL,"8",NULL,"1.175","0.54999999999991","0.6"
"2021-07-30-12:04:19",NULL,"html-keyboard-response","40","31914","0.0-1.39-0.39",NULL,NULL,NULL,NULL,NULL,NULL,"-2.0047951600662","1","-2.0120861573541","0.055182699241892","-2.0473467656091","1","-2.0554120487565","0.095710156426044","-2","1","-1.9898900791423","0.068957754001464","au4ayepx","Netscape","Apple Computer, Inc.","iPhone","Mozilla/5.0 (iPhone; CPU iPhone OS 14_6 like Mac OS X) AppleWebKit/605.1.15 (KHTML, like Gecko) CriOS/92.0.4515.90 Mobile/15E148 Safari/604.1","Chrome Mobile","92.0.4515.90","WebKit","32","iOS","14.6","iOS 14.6","Chrome Mobile 92.0.4515.90 (like Safari 11.x) on Apple iPhone (iOS 14.6)","iPhone","15",NULL,"1.9","0.32499999999982","0.475"
"2021-07-30-12:05:35",NULL,"html-keyboard-response","40","25213","0.0-1.39-0.39",NULL,NULL,NULL,NULL,NULL,NULL,"-2.0091424252791","1","-2.016818178722","0.049259307785068","-1.9936661585385","1","-1.9977229510533","0.048381703713623","-2.02","1","-2.0140469731498","0.052655010636784","vezm6b4n","Netscape","Apple Computer, Inc.","iPhone","Mozilla/5.0 (iPhone; CPU iPhone OS 14_6 like Mac OS X) AppleWebKit/605.1.15 (KHTML, like Gecko) Version/14.1.1 Mobile/15E148 Safari/604.1","Safari","14.1.1","WebKit","32","iOS","14.6","iOS 14.6","Safari 14.1.1 on Apple iPhone (iOS 14.6)","iPhone","18",NULL,"2.6250000000001","0.625","0.675"
"2021-07-30-12:05:51",NULL,"html-keyboard-response","40","39064","0.0-1.39-0.39",NULL,NULL,NULL,NULL,NULL,NULL,"-1.95156896963","1","-1.9583947912279","0.05531523198087","-2.025069864323","1","-2.0292188605978","0.04911818680846","-2.05","1","-2.0444031433561","0.048436706921587","zbkbeoop","Netscape","Apple Computer, Inc.","iPhone","Mozilla/5.0 (iPhone; CPU iPhone OS 14_6 like Mac OS X) AppleWebKit/605.1.15 (KHTML, like Gecko) Version/14.1.1 Mobile/15E148 Safari/604.1","Safari","14.1.1","WebKit","32","iOS","14.6","iOS 14.6","Safari 14.1.1 on Apple iPhone (iOS 14.6)","iPhone","10",NULL,"1.0749999999995","0.34999999999982","0.30000000000018"
"2021-07-30-12:06:42",NULL,"html-keyboard-response","40","21524","0.0-1.39-0.39",NULL,NULL,NULL,NULL,NULL,NULL,"-1.9823496282748","1","-1.9878189147398","0.052821034739978","-2.0020031994814","1","-2.0063215921947","0.051697117568481","-1.96","0","-1.8837756436417","0.20739558007619","yb4b0mm6","Netscape","Google Inc.","MacIntel","Mozilla/5.0 (Macintosh; Intel Mac OS X 10_15_7) AppleWebKit/537.36 (KHTML, like Gecko) Chrome/91.0.4472.114 Safari/537.36","Chrome","91.0.4472.114","Blink","64","OS X","10.15.7","OS X 10.15.7 64-bit","Chrome 91.0.4472.114 on OS X 10.15.7 64-bit",NULL,"23.099999904633",NULL,"0.45500001907349","0.14000000357628","0.13000000119209"
"2021-07-30-12:07:34",NULL,"html-keyboard-response","40","25416","0.0-1.39-0.39",NULL,NULL,NULL,NULL,NULL,NULL,"-1.9768900031376","1","-1.9797606255188","0.1003775736572","-1.9937426638079","1","-1.9985197375866","0.053176807979604","-1.94","1","-1.9358079014609","0.046164163152056","u6z4116m","Netscape","Apple Computer, Inc.","MacIntel","Mozilla/5.0 (Macintosh; Intel Mac OS X 10_15_7) AppleWebKit/605.1.15 (KHTML, like Gecko) Version/14.1.1 Safari/605.1.15","Safari","14.1.1","WebKit","32","OS X","10.15.7","OS X 10.15.7","Safari 14.1.1 on OS X 10.15.7",NULL,"28",NULL,"0.45000000000009","0.125","0.075"
"2021-07-30-13:23:24",NULL,"html-keyboard-response","40","25660","0.0-1.39-0.39",NULL,NULL,NULL,NULL,NULL,NULL,"-1.9637604537681","1","-1.9667305075966","0.096371658911417","-1.9788114759305","1","-1.9860062683302","0.086087725410518","-2.39","0","-2.2401647369038","0.30162033422143","063fvmcm","Netscape","Apple Computer, Inc.","iPhone","Mozilla/5.0 (iPhone; CPU iPhone OS 14_6 like Mac OS X) AppleWebKit/605.1.15 (KHTML, like Gecko) Version/14.1.1 Mobile/15E148 Safari/604.1","Safari","14.1.1","WebKit","32","iOS","14.6","iOS 14.6","Safari 14.1.1 on Apple iPhone (iOS 14.6)","iPhone","9",NULL,"2.0250000000003","0.54999999999991","0.67499999999982"
"2021-07-30-13:28:31",NULL,"html-keyboard-response","40","21750","0.0-1.39-0.39",NULL,NULL,NULL,NULL,NULL,NULL,"-1.9832553592286","0","-1.9647505206517","0.06622393753307","-1.9536531053954","1","-1.9578869808304","0.049469594916546","-2.49","1","-2.4600130040933","0.11542673126969","ha4pvxa9","Netscape","Apple Computer, Inc.","iPhone","Mozilla/5.0 (iPhone; CPU iPhone OS 14_6 like Mac OS X) AppleWebKit/605.1.15 (KHTML, like Gecko) Version/14.1.1 Mobile/15E148 Safari/604.1","Safari","14.1.1","WebKit","32","iOS","14.6","iOS 14.6","Safari 14.1.1 on Apple iPhone (iOS 14.6)","iPhone","8",NULL,"1.5000000000005","0.34999999999991","0.4"
"2021-07-30-13:38:54",NULL,"html-keyboard-response","40","32616","0.0-1.39-0.39",NULL,NULL,NULL,NULL,NULL,NULL,"-1.9646435099957","1","-1.9714584801201","0.060055544032161","-2.0852846727689","0","-2.0631007066269","0.091662134135241","-2.04","1","-2.0298139889148","0.053158282350943","fbj2u7wf","Netscape","Google Inc.","Win32","Mozilla/5.0 (Windows NT 10.0; Win64; x64) AppleWebKit/537.36 (KHTML, like Gecko) Chrome/92.0.4515.107 Safari/537.36","Chrome","92.0.4515.107","Blink","64","Windows","10","Windows 10 64-bit","Chrome 92.0.4515.107 on Windows 10 64-bit",NULL,"4.3999999761581",NULL,"0.77500001788139","0.1124999910593","0.21499999761581"
"2021-07-30-13:54:46",NULL,"html-keyboard-response","40","29198","0.0-1.39-0.39",NULL,NULL,NULL,NULL,NULL,NULL,"-1.8964134308307","1","-1.9046432609176","0.051170276845162","-2.0020052113088","1","-2.0078741202766","0.068193428108482","-2.01","1","-1.9827616269546","0.13854571988009","ra00nzdx","Netscape","Google Inc.","Win32","Mozilla/5.0 (Windows NT 10.0; Win64; x64) AppleWebKit/537.36 (KHTML, like Gecko) Chrome/91.0.4472.124 Safari/537.36 Edg/91.0.864.67","Microsoft Edge","91.0.864.67","Blink","64","Windows","10","Windows 10 64-bit","Microsoft Edge 91.0.864.67 on Windows 10 64-bit",NULL,"18.200000047684",NULL,"1.1800000011921","0.27750001549721","0.24999998211861"
"2021-07-30-15:28:57",NULL,"html-keyboard-response","40","24590","0.0-1.39-0.39",NULL,NULL,NULL,NULL,NULL,NULL,"-2.0412040394177","0","-2.0241749137092","0.056960603014118","-1.9617311042654","1","-1.9806766468409","0.11069530954502","-2.02","1","-2.0139105162439","0.052031021718402","6ck6u2kw","Netscape","Apple Computer, Inc.","MacIntel","Mozilla/5.0 (Macintosh; Intel Mac OS X 10_15_7) AppleWebKit/605.1.15 (KHTML, like Gecko) Version/14.1.2 Safari/605.1.15","Safari","14.1.2","WebKit","32","OS X","10.15.7","OS X 10.15.7","Safari 14.1.2 on OS X 10.15.7",NULL,"5",NULL,"0.25000000000009","0.1","0.025"
"2021-07-30-16:38:38",NULL,"html-keyboard-response","40","32946","0.0-1.39-0.39",NULL,NULL,NULL,NULL,NULL,NULL,"-1.9967688632032","0","-1.9803867594405","0.05494960938421","-2.1962059878195","1","-2.2044331832868","0.099373164031155","-2.47","1","-2.4162986499152","0.18226306423362","7m8g0ljo","Netscape","Google Inc.","Win32","Mozilla/5.0 (Windows NT 10.0; Win64; x64) AppleWebKit/537.36 (KHTML, like Gecko) Chrome/92.0.4515.107 Safari/537.36","Chrome","92.0.4515.107","Blink","64","Windows","10","Windows 10 64-bit","Chrome 92.0.4515.107 on Windows 10 64-bit",NULL,"16.600000000559",NULL,"0.80749999992549","0.21499999994412","0.25250000013039"
"2021-07-30-16:39:49",NULL,"html-keyboard-response","40","23274","0.0-1.39-0.39",NULL,NULL,NULL,NULL,NULL,NULL,"-2.0317683596172","0","-1.9853941924899","0.1765659230532","-1.9951589862584","1","-2.001429204852","0.066250862399191","-1.95","1","-1.9406575846962","0.069179609475045","9dlpx2xf","Netscape",,"Win32","Mozilla/5.0 (Windows NT 10.0; Win64; x64; rv:89.0) Gecko/20100101 Firefox/89.0","Firefox","89.0","Gecko","64","Windows","10","Windows 10 64-bit","Firefox 89.0 on Windows 10 64-bit",NULL,"27",NULL,"1.275","0.35","0.225"
"2021-07-30-16:40:25",NULL,"html-keyboard-response","40","22183","0.0-1.39-0.39",NULL,NULL,NULL,NULL,NULL,NULL,"-1.9576053042751","1","-2.0004671695385","0.12000982605597","-1.9394977290605","1","-1.945388179626","0.060932603304843","-1.98","0","-1.935027616273","0.11349935011842","dt9zx0rs","Netscape","Google Inc.","Win32","Mozilla/5.0 (Windows NT 10.0; Win64; x64) AppleWebKit/537.36 (KHTML, like Gecko) Chrome/92.0.4515.107 Safari/537.36 Edg/92.0.902.55","Microsoft Edge","92.0.902.55","Blink","64","Windows","10","Windows 10 64-bit","Microsoft Edge 92.0.902.55 on Windows 10 64-bit",NULL,"9.5",NULL,"0.73000000002794","0.20749999987893","0.28500000014901"
"2021-07-30-16:41:39",NULL,"html-keyboard-response","40","22503","0.0-1.39-0.39",NULL,NULL,NULL,NULL,NULL,NULL,"-2.0629885445457","1","-2.0728849690637","0.10984232641932","-2.0105744614872","1","-2.0155241552054","0.055044191822083","-2.26","0","-2.0934649156717","0.34408607812858","9ny8xul3","Netscape","Google Inc.","Linux armv7l","Mozilla/5.0 (Linux; Android 8.0.0; RNE-L22) AppleWebKit/537.36 (KHTML, like Gecko) Chrome/92.0.4515.115 Mobile Safari/537.36","Chrome Mobile","92.0.4515.115","Blink","32","Android","8.0.0","Android 8.0.0","Chrome Mobile 92.0.4515.115 on RNE-L22 (Android 8.0.0)","RNE-L22","36.5",NULL,"3.3450000017881","0.78499999642372","1.009999999404"
"2021-07-30-16:42:32",NULL,"html-keyboard-response","40","23697","0.0-1.39-0.39",NULL,NULL,NULL,NULL,NULL,NULL,"-2.1448820181936","1","-2.1474283303097","0.10936617657663","-2.1112812620437","1","-2.1171097203303","0.060680821004417","-2.22","0","-1.950634278142","0.47086295835514","xpzj3n20","Netscape",,"Linux aarch64","Mozilla/5.0 (Android 8.0.0; Mobile; rv:90.0) Gecko/90.0 Firefox/90.0","Firefox Mobile","90.0","Gecko","32","Android","8.0.0","Android 8.0.0","Firefox Mobile 90.0 on Mobile (Android 8.0.0)","Mobile","43",NULL,"3.8","1.05","1.15"
"2021-07-30-16:53:52",NULL,"html-keyboard-response","40","25287","0.0-1.39-0.39",NULL,NULL,NULL,NULL,NULL,NULL,"-1.9472098359059","1","-1.9545281785294","0.048840899997959","-2.0111441998497","0","-1.9890740516144","0.066974270115779","-1.98","1","-1.9717074487922","0.071780486637004","5sm2pf95","Netscape","Google Inc.","MacIntel","Mozilla/5.0 (Macintosh; Intel Mac OS X 10_15_7) AppleWebKit/537.36 (KHTML, like Gecko) Chrome/92.0.4515.107 Safari/537.36","Chrome","92.0.4515.107","Blink","64","OS X","10.15.7","OS X 10.15.7 64-bit","Chrome 92.0.4515.107 on OS X 10.15.7 64-bit",NULL,"3.6000000089407",NULL,"0.28000000193715","0.060000000521541","0.095000000298023"
"2021-07-30-17:53:53",NULL,"html-keyboard-response","40","26519","0.0-1.39-0.39",NULL,NULL,NULL,NULL,NULL,NULL,"-1.9679252896555","1","-1.9740691548396","0.05351845635706","-2.098719557129","0","-2.021696050606","0.33165717628204","-2.01","1","-2.001876348364","0.070375119720107","ml0mr8yp","Netscape","Google Inc.","MacIntel","Mozilla/5.0 (Macintosh; Intel Mac OS X 10_15_7) AppleWebKit/537.36 (KHTML, like Gecko) Chrome/92.0.4515.107 Safari/537.36","Chrome","92.0.4515.107","Blink","64","OS X","10.15.7","OS X 10.15.7 64-bit","Chrome 92.0.4515.107 on OS X 10.15.7 64-bit",NULL,"3.7999999970198",NULL,"0.34250000026077","0.060000000149012","0.092499999701977"
"2021-07-30-19:49:40",NULL,"html-keyboard-response","40","32924","0.0-1.39-0.39",NULL,NULL,NULL,NULL,NULL,NULL,"-2.0002926333543","1","-2.0039501821151","0.099781356042029","-2.0251280792428","1","-2.0299862337231","0.053706751361723","-2.26","1","-2.1941057170809","0.22528053836861","d6naolzv","Netscape","Google Inc.","Win32","Mozilla/5.0 (Windows NT 10.0; Win64; x64) AppleWebKit/537.36 (KHTML, like Gecko) Chrome/92.0.4515.107 Safari/537.36","Chrome","92.0.4515.107","Blink","64","Windows","10","Windows 10 64-bit","Chrome 92.0.4515.107 on Windows 10 64-bit",NULL,"15.099999904633",NULL,"0.76000001430511","0.2125000089407","0.25250000655651"
"2021-07-30-21:04:13",NULL,"html-keyboard-response","40","24221","0.0-1.39-0.39",NULL,NULL,NULL,NULL,NULL,NULL,"-1.9837086036368","0","-1.9645958536446","0.067544378795787","-1.9800830355937","1","-1.9841896948957","0.048616298602197","-2.08","0","-2.0191247845976","0.15163485953012","sem389rb","Netscape","Google Inc.","Linux armv8l","Mozilla/5.0 (Linux; Android 10; 801SO) AppleWebKit/537.36 (KHTML, like Gecko) Chrome/89.0.4389.105 Mobile Safari/537.36","Chrome Mobile","89.0.4389.105","Blink","32","Android","10","Android 10","Chrome Mobile 89.0.4389.105 on 801SO (Android 10)","801SO","18.300000112504",NULL,"4.0450001019053","1.0800000047311","1.6924999188632"
"2021-07-30-22:20:17",NULL,"html-keyboard-response","40","40596","0.0-1.39-0.39",NULL,NULL,NULL,NULL,NULL,NULL,"-2.1598706138799","1","-2.1655184373012","0.05494607539208","-2.0342588552204","1","-2.0393273199317","0.057132315326059","-2","0","-1.9710969640098","0.060447917411775","sjzxsswh","Netscape","Apple Computer, Inc.","iPhone","Mozilla/5.0 (iPhone; CPU iPhone OS 14_4_2 like Mac OS X) AppleWebKit/605.1.15 (KHTML, like Gecko) Version/14.0.3 Mobile/15E148 Safari/604.1","Safari","14.0.3","WebKit","32","iOS","14.4.2","iOS 14.4.2","Safari 14.0.3 on Apple iPhone (iOS 14.4.2)","iPhone","15",NULL,"1.525","0.375","0.47500000000055"
"2021-07-30-23:36:01",NULL,"html-keyboard-response","40","25285","0.0-1.39-0.39",NULL,NULL,NULL,NULL,NULL,NULL,"-1.9852494498685","1","-1.9887788683989","0.10341161725536","-1.9250074435441","1","-1.9300568152504","0.060540732125112","-2.02","1","-2.0001589947115","0.10905879973257","5e69v3o1","Netscape","Google Inc.","Win32","Mozilla/5.0 (Windows NT 10.0; Win64; x64) AppleWebKit/537.36 (KHTML, like Gecko) Chrome/91.0.4472.164 Safari/537.36","Chrome","91.0.4472.164","Blink","64","Windows","10","Windows 10 64-bit","Chrome 91.0.4472.164 on Windows 10 64-bit",NULL,"9.6000001430511",NULL,"0.39999997019768","0.14999997019768","0.12500000596046"
"2021-07-31-07:47:17",NULL,"html-keyboard-response","40","32870","0.0-1.39-0.39",NULL,NULL,NULL,NULL,NULL,NULL,"-2.0186608507258","1","-2.0096257981519","0.18770162677588","-1.9526336648016","1","-1.9570091426304","0.050566913132692","-2","1","-1.9906033684141","0.056578671310664","wgzsc1sw","Netscape","Google Inc.","Win32","Mozilla/5.0 (Windows NT 10.0; Win64; x64) AppleWebKit/537.36 (KHTML, like Gecko) Chrome/92.0.4515.107 Safari/537.36","Chrome","92.0.4515.107","Blink","64","Windows","10","Windows 10 64-bit","Chrome 92.0.4515.107 on Windows 10 64-bit",NULL,"5.6000001430511",NULL,"0.51750000119209","0.084999996423721","0.15250000357628"
"2021-07-31-21:03:33",NULL,"html-keyboard-response","40","34463","0.0-1.39-0.39",NULL,NULL,NULL,NULL,NULL,NULL,"-1.9776907815713","1","-1.9734411329623","0.17140640075309","-2.0581923893052","1","-2.0624777290009","0.049770500968449","-2.03","1","-2.0129684468717","0.11234063890044","6l4e3enm","Netscape","Apple Computer, Inc.","MacIntel","Mozilla/5.0 (Macintosh; Intel Mac OS X 10_14_6) AppleWebKit/605.1.15 (KHTML, like Gecko) Version/12.1.2 Safari/605.1.15","Safari","12.1.2","WebKit","32","OS X","10.14.6","OS X 10.14.6","Safari 12.1.2 on OS X 10.14.6",NULL,"7.0000000000001",NULL,"0.35","0.1","0.2"
"2021-08-01-00:57:11",NULL,"html-keyboard-response","40","32035","0.0-1.39-0.39",NULL,NULL,NULL,NULL,NULL,NULL,"-2.0290559607788","1","-2.0358484068785","0.051215821310432","-1.9794618959578","1","-1.9849406172679","0.058029591916303","-2.04","1","-1.9813472143021","0.23985294548869","5w2j2eyc","Netscape","Google Inc.","Win32","Mozilla/5.0 (Windows NT 10.0; Win64; x64) AppleWebKit/537.36 (KHTML, like Gecko) Chrome/92.0.4515.107 Safari/537.36 Edg/92.0.902.62","Microsoft Edge","92.0.902.62","Blink","64","Windows","10","Windows 10 64-bit","Microsoft Edge 92.0.902.62 on Windows 10 64-bit",NULL,"5.4000000953674",NULL,"0.31750001013279","0.085000005364418","0.11500000059605"
"2021-08-01-12:33:00",NULL,"html-keyboard-response","40","25050","0.0-1.39-0.39",NULL,NULL,NULL,NULL,NULL,NULL,"-1.9580435813559","0","-1.943997961417","0.052211832539632","-2.0264294023235","0","-1.899733047142","0.41218945969421","-1.91","1","-1.8693395324046","0.19886674522252","gc75pcjl","Netscape","Apple Computer, Inc.","iPhone","Mozilla/5.0 (iPhone; CPU iPhone OS 14_6 like Mac OS X) AppleWebKit/605.1.15 (KHTML, like Gecko) Version/14.1.1 Mobile/15E148 Safari/604.1","Safari","14.1.1","WebKit","32","iOS","14.6","iOS 14.6","Safari 14.1.1 on Apple iPhone (iOS 14.6)","iPhone","21",NULL,"1.6749999999999","0.37499999999991","0.44999999999991"
"2021-08-01-16:57:07",NULL,"html-keyboard-response","40","63138","0.0-1.39-0.39",NULL,NULL,NULL,NULL,NULL,NULL,"-2.0507601879051","0","-2.0325736394548","0.056294044462497","-2.0225485637411","1","-2.0288678119714","0.069788508268699","-2.15","0","-2.1163276933867","0.069093350857066","t9n23nsk","Netscape","Google Inc.","Win32","Mozilla/5.0 (Windows NT 10.0; Win64; x64) AppleWebKit/537.36 (KHTML, like Gecko) Chrome/92.0.4515.107 Safari/537.36","Chrome","92.0.4515.107","Blink","64","Windows","10","Windows 10 64-bit","Chrome 92.0.4515.107 on Windows 10 64-bit",NULL,"24.20000000298",NULL,"0.76750000119209","0.18499999977648","0.21999999880791"
"2021-08-04-10:41:55",NULL,"html-keyboard-response","40","23089","0.0-1.39-0.39",NULL,NULL,NULL,NULL,NULL,NULL,"-2.0546197264538","1","-2.0617844271003","0.050511484910221","-2.1113542556327","1","-2.1159204717487","0.052239664226371","-1.97","1","-1.9179601965599","0.22069683126798","5xfq7lk7","Netscape","Google Inc.","MacIntel","Mozilla/5.0 (Macintosh; Intel Mac OS X 10_15_7) AppleWebKit/537.36 (KHTML, like Gecko) Chrome/92.0.4515.131 Safari/537.36","Chrome","92.0.4515.131","Blink","64","OS X","10.15.7","OS X 10.15.7 64-bit","Chrome 92.0.4515.131 on OS X 10.15.7 64-bit",NULL,"7.6000000000931",NULL,"0.87500000002328","0.22999999998137","0.20499999996973"
"2021-08-04-21:38:09",NULL,"html-keyboard-response","40","25506","0.0-1.39-0.39",NULL,NULL,NULL,NULL,NULL,NULL,"-2.0242946268932","1","-2.0305683377057","0.049875405351408","-2.0696666932071","1","-2.0742843407911","0.053472013342331","-2.05","0","-2.0028582252051","0.11481997113515","pp1mymdw","Netscape","Google Inc.","Win32","Mozilla/5.0 (Windows NT 10.0; Win64; x64) AppleWebKit/537.36 (KHTML, like Gecko) Chrome/92.0.4515.131 Safari/537.36","Chrome","92.0.4515.131","Blink","64","Windows","10","Windows 10 64-bit","Chrome 92.0.4515.131 on Windows 10 64-bit",NULL,"9.3000000715256",NULL,"0.58249997496605","0.14749999642372","0.16500000357628"
"2021-08-06-10:31:50",NULL,"html-keyboard-response","40","25394","0.0-1.39-0.39",NULL,NULL,NULL,NULL,NULL,NULL,"-2.0078868535193","0","-1.9885825083508","0.060593433854071","-2.0669531028764","1","-2.0723434247766","0.057539941871745","-1.99","1","-1.9849327109264","0.050361401492117","2au0ap1g","Netscape","Google Inc.","Win32","Mozilla/5.0 (Windows NT 10.0; Win64; x64) AppleWebKit/537.36 (KHTML, like Gecko) Chrome/92.0.4515.131 Safari/537.36","Chrome","92.0.4515.131","Blink","64","Windows","10","Windows 10 64-bit","Chrome 92.0.4515.131 on Windows 10 64-bit",NULL,"3.8999999999069",NULL,"0.75500000002794","0.16750000003958","0.21499999997905"
"2021-08-06-10:32:30",NULL,"html-keyboard-response","40","22882","0.0-1.39-0.39",NULL,NULL,NULL,NULL,NULL,NULL,"-2.0003289520431","1","-2.0069157816393","0.046515281011648","-1.9332010394551","1","-1.9421358191777","0.091309322575639","-1.91","1","-1.8987079479829","0.059910484590266","73472gra","Netscape",,"Win32","Mozilla/5.0 (Windows NT 10.0; Win64; x64; rv:90.0) Gecko/20100101 Firefox/90.0","Firefox","90.0","Gecko","64","Windows","10","Windows 10 64-bit","Firefox 90.0 on Windows 10 64-bit",NULL,"5",NULL,"0.8","0.1","0.15"
"2021-08-06-10:33:04",NULL,"html-keyboard-response","40","23789","0.0-1.39-0.39",NULL,NULL,NULL,NULL,NULL,NULL,"-2.1456789437678","1","-2.1528517142592","0.051213445399632","-1.959583862891","1","-1.9651059477732","0.058326433753764","-2.05","0","-2.0231286333374","0.063701670356141","g1bpuapl","Netscape","Google Inc.","Win32","Mozilla/5.0 (Windows NT 10.0; Win64; x64) AppleWebKit/537.36 (KHTML, like Gecko) Chrome/92.0.4515.107 Safari/537.36 Edg/92.0.902.62","Microsoft Edge","92.0.902.62","Blink","64","Windows","10","Windows 10 64-bit","Microsoft Edge 92.0.902.62 on Windows 10 64-bit",NULL,"4",NULL,"0.74749999996275","0.17499999995343","0.21249999995343"
"2021-08-06-16:29:57",NULL,"html-keyboard-response","40","26822","0.0-1.39-0.39",NULL,NULL,NULL,NULL,NULL,NULL,"-1.9806287704931","1","-1.9864723721057","0.054065604847475","-2.1258781097827","0","-2.106393515598","0.053335656441766","-2.01","1","-1.9965940365721","0.057215477378994","71gwgqqy","Netscape","Google Inc.","Win32","Mozilla/5.0 (Windows NT 10.0; Win64; x64) AppleWebKit/537.36 (KHTML, like Gecko) Chrome/92.0.4515.131 Safari/537.36","Chrome","92.0.4515.131","Blink","64","Windows","10","Windows 10 64-bit","Chrome 92.0.4515.131 on Windows 10 64-bit",NULL,"6.2000000476837",NULL,"0.74499998688698","0.19750000834465","0.22999997735023"
"2021-08-06-16:32:52",NULL,"html-keyboard-response","40","23229","0.0-1.39-0.39",NULL,NULL,NULL,NULL,NULL,NULL,"-1.9448343663349","1","-1.9619692582023","0.097235079345064","-2.0625354576259","0","-2.0391730145719","0.057892652534554","-2.18","0","-1.9458574406482","0.44145745105885","ogw5g6sh","Netscape",,"Win32","Mozilla/5.0 (Windows NT 10.0; Win64; x64; rv:90.0) Gecko/20100101 Firefox/90.0","Firefox","90.0","Gecko","64","Windows","10","Windows 10 64-bit","Firefox 90.0 on Windows 10 64-bit",NULL,"6",NULL,"0.475","0.075","0.15"
"2021-08-06-16:33:52",NULL,"html-keyboard-response","40","23336","0.0-1.39-0.39",NULL,NULL,NULL,NULL,NULL,NULL,"-1.978092350337","1","-1.9847735107407","0.050998655798167","-1.9140700894103","1","-1.9318034555319","0.149296737102","-1.96","1","-1.9505485890796","0.051705524889534","oluhcr0r","Netscape","Google Inc.","Win32","Mozilla/5.0 (Windows NT 10.0; Win64; x64) AppleWebKit/537.36 (KHTML, like Gecko) Chrome/92.0.4515.107 Safari/537.36 Edg/92.0.902.62","Microsoft Edge","92.0.902.62","Blink","64","Windows","10","Windows 10 64-bit","Microsoft Edge 92.0.902.62 on Windows 10 64-bit",NULL,"11.299999952316",NULL,"0.66749997735024","0.125","0.18500002026558"
"2021-08-06-16:46:46",NULL,"html-keyboard-response","40","43816","0.0-1.39-0.39",NULL,NULL,NULL,NULL,NULL,NULL,"-1.9796728749532","1","-1.9863651330098","0.20014108215827","-2.0624951444996","1","-2.0685878171814","0.060380459539899","-2.25","0","-1.9969807220063","0.44972246246248","jr18ylso","Netscape","Google Inc.","Win32","Mozilla/5.0 (Windows NT 10.0; Win64; x64) AppleWebKit/537.36 (KHTML, like Gecko) Chrome/92.0.4515.131 Safari/537.36","Chrome","92.0.4515.131","Blink","64","Windows","10","Windows 10 64-bit","Chrome 92.0.4515.131 on Windows 10 64-bit",NULL,"14.800000000047",NULL,"0.70500000000757","0.17999999999593","0.21500000001106"
"2021-08-06-16:48:12",NULL,"html-keyboard-response","40","23179","0.0-1.39-0.39",NULL,NULL,NULL,NULL,NULL,NULL,"-1.9580563425029","1","-1.9646404368275","0.052121123798748","-2.1026896984708","1","-2.1075876325752","0.053919077865948","-2.15","1","-2.1416027402181","0.053038272908343","196b47qr","Netscape",,"Win32","Mozilla/5.0 (Windows NT 10.0; Win64; x64; rv:90.0) Gecko/20100101 Firefox/90.0","Firefox","90.0","Gecko","64","Windows","10","Windows 10 64-bit","Firefox 90.0 on Windows 10 64-bit",NULL,"17",NULL,"0.55","0.125","0.075"
"2021-08-06-16:48:54",NULL,"html-keyboard-response","40","24085","0.0-1.39-0.39",NULL,NULL,NULL,NULL,NULL,NULL,"-1.9424691326897","1","-1.9485830933268","0.050707420633468","-2.0309651547453","1","-2.0354123991361","0.050846812589077","-2.02","1","-2.0079525338042","0.05715434487955","k8ayktjp","Netscape","Google Inc.","Win32","Mozilla/5.0 (Windows NT 10.0; Win64; x64) AppleWebKit/537.36 (KHTML, like Gecko) Chrome/92.0.4515.107 Safari/537.36 Edg/92.0.902.62","Microsoft Edge","92.0.902.62","Blink","64","Windows","10","Windows 10 64-bit","Microsoft Edge 92.0.902.62 on Windows 10 64-bit",NULL,"15.199999999953",NULL,"0.62750000001979","0.1524999999936","0.15750000001281"
"2021-08-06-17:49:31",NULL,"html-keyboard-response","40","63290","0.0-1.39-0.39",NULL,NULL,NULL,NULL,NULL,NULL,"-1.9638631817539","1","-1.9681132957591","0.098824941956485","-2.0173350668308","0","-1.996938531218","0.065208027418568","-1.98","1","-1.9700323977752","0.080889701630922","6bxy63dd","Netscape","Google Inc.","Win32","Mozilla/5.0 (Windows NT 10.0; Win64; x64) AppleWebKit/537.36 (KHTML, like Gecko) Chrome/92.0.4515.131 Safari/537.36","Chrome","92.0.4515.131","Blink","64","Windows","10","Windows 10 64-bit","Chrome 92.0.4515.131 on Windows 10 64-bit",NULL,"8.5999999996275",NULL,"1.5950000001118","0.3249999998603","0.41749999988824"
"2021-08-06-17:50:34",NULL,"html-keyboard-response","40","24467","0.0-1.39-0.39",NULL,NULL,NULL,NULL,NULL,NULL,"-1.9994110465741","1","-2.0020761440615","0.10291034829908","-1.9379432890499","1","-1.9436101629088","0.062916049117448","-2.05","0","-1.9875203608259","0.17413419959386","p5dgbrsm","Netscape",,"Win32","Mozilla/5.0 (Windows NT 10.0; Win64; x64; rv:90.0) Gecko/20100101 Firefox/90.0","Firefox","90.0","Gecko","64","Windows","10","Windows 10 64-bit","Firefox 90.0 on Windows 10 64-bit",NULL,"11",NULL,"2.25","0.45","0.45"
"2021-08-06-17:51:20",NULL,"html-keyboard-response","40","26903","0.0-1.39-0.39",NULL,NULL,NULL,NULL,NULL,NULL,"-2.0355386586531","1","-2.0508873667071","0.066983659364774","-2.0409515558235","1","-2.0459770085778","0.056660026450131","-1.97","1","-2.0144733808097","0.18506321226531","yrnn7ul2","Netscape","Google Inc.","Win32","Mozilla/5.0 (Windows NT 10.0; Win64; x64) AppleWebKit/537.36 (KHTML, like Gecko) Chrome/92.0.4515.107 Safari/537.36 Edg/92.0.902.62","Microsoft Edge","92.0.902.62","Blink","64","Windows","10","Windows 10 64-bit","Microsoft Edge 92.0.902.62 on Windows 10 64-bit",NULL,"37.900000000373",NULL,"1.4524999997579","0.3250000001397","0.43249999983236"
"2021-08-11-15:01:51",NULL,"html-keyboard-response","40","28764","0.0-1.39-0.39",NULL,NULL,NULL,NULL,NULL,NULL,"-1.9627578375396","1","-1.970966562197","0.051082979290824","-1.9626271286119","1","-1.9676728592441","0.060985437721973","-2.06","1","-1.8233741637374","0.56284217752945","7nk85798","Netscape","Google Inc.","MacIntel","Mozilla/5.0 (Macintosh; Intel Mac OS X 10_15_7) AppleWebKit/537.36 (KHTML, like Gecko) Chrome/92.0.4515.131 Safari/537.36","Chrome","92.0.4515.131","Blink","64","OS X","10.15.7","OS X 10.15.7 64-bit","Chrome 92.0.4515.131 on OS X 10.15.7 64-bit",NULL,"9",NULL,"0.86750000044703","0.18499999940395","0.21750000044703"
